Folder: XRD-Analysis/XRD-Data-txt

Note: README.md
The folders contain data gathered from the experiment, example datasets

File: 20-50 1s NaCl.txt
angle [deg]	counting rate [cps]
20.00	51.64
20.50	47.66
21.00	59.32
21.50	64.98
22.00	45.43
22.50	50.32
23.00	51.20
23.50	45.46
24.00	49.53
24.50	47.09
25.00	52.55
25.50	52.75
26.00	56.89
26.50	62.63
27.00	87.67
27.50	285.56
28.00	309.37
28.50	139.54
29.00	71.26
29.50	62.19
30.00	97.32
30.50	1230.64
31.00	1417.15
31.50	717.93
32.00	204.96
32.50	64.13
33.00	60.38
33.50	63.42
34.00	61.57
34.50	39.65
35.00	64.05
35.50	60.45
36.00	45.62
36.50	42.80
37.00	42.89
37.50	48.44
38.00	47.39
38.50	44.24
39.00	41.55
39.50	48.01
40.00	30.04
40.50	32.19
41.00	29.78
41.50	41.18
42.00	33.92
42.50	30.48
43.00	31.23
43.50	34.91
44.00	33.88
44.50	30.38
45.00	31.05
45.50	16.74
46.00	23.93
46.50	30.51
47.00	34.30
47.50	19.49
48.00	27.70
48.50	29.06
49.00	26.40
49.50	27.13
50.00	27.24

File: 20-50 5s LiF.txt
angle [deg]	counting rate [cps]
20.00	160.41
20.50	161.98
21.00	167.17
21.50	160.74
22.00	166.75
22.50	183.48
23.00	176.87
23.50	169.76
24.00	179.38
24.50	177.12
25.00	183.14
25.50	187.88
26.00	168.37
26.50	168.26
27.00	184.47
27.50	176.75
28.00	185.95
28.50	179.95
29.00	175.30
29.50	184.17
30.00	190.63
30.50	194.81
31.00	185.61
31.50	181.35
32.00	180.13
32.50	185.65
33.00	176.59
33.50	187.37
34.00	172.08
34.50	177.23
35.00	171.48
35.50	173.32
36.00	184.11
36.50	184.25
37.00	173.13
37.50	171.19
38.00	171.88
38.50	175.03
39.00	170.27
39.50	172.53
40.00	172.33
40.50	179.21
41.00	170.80
41.50	160.53
42.00	165.87
42.50	162.59
43.00	151.57
43.50	164.84
44.00	159.92
44.50	152.83
45.00	163.28
45.50	169.97
46.00	186.81
46.50	177.04
47.00	369.73
47.50	1267.10
48.00	1565.14
48.50	1274.08
49.00	1126.82
49.50	1134.73
50.00	1137.00

File: 20-50 5s NaCl.txt
angle [deg]	counting rate [cps]
20.00	55.73
20.50	55.67
21.00	57.24
21.50	50.69
22.00	52.14
22.50	51.89
23.00	50.97
23.50	49.52
24.00	46.00
24.50	52.66
25.00	53.59
25.50	49.06
26.00	45.66
26.50	52.35
27.00	54.14
27.50	45.96
28.00	50.53
28.50	44.41
29.00	49.95
29.50	46.44
30.00	56.35
30.50	240.35
31.00	262.24
31.50	152.73
32.00	84.54
32.50	58.80
33.00	62.79
33.50	148.65
34.00	544.98
34.50	1192.04
35.00	1258.76
35.50	1054.30
36.00	862.56
36.50	288.03
37.00	220.11
37.50	75.90
38.00	65.35
38.50	52.13
39.00	53.23
39.50	47.39
40.00	46.01
40.50	43.03
41.00	45.98
41.50	38.65
42.00	39.07
42.50	39.07
43.00	44.59
43.50	43.34
44.00	45.35
44.50	37.13
45.00	37.25
45.50	33.99
46.00	37.90
46.50	33.89
47.00	34.42
47.50	30.43
48.00	30.88
48.50	37.65
49.00	33.04
49.50	32.33
50.00	32.32